<?xml version="1.0" encoding="UTF-8"?>
<CareTeam xmlns="http://hl7.org/fhir" xmlns:xsi="http://www.w3.org/2001/XMLSchema-instance" xsi:schemaLocation="http://hl7.org/fhir ../../schema/CareTeam.xsd">
  <id value="example"/>

  <text>
    <status value="generated" />
    <div xmlns="http://www.w3.org/1999/xhtml">Care Team</div>
  </text>

  <contained>
    <Practitioner>
      <id value="pr1"/>
      <name>
        <family value="Dietician"/>
        <given value="Dorothy"/>
      </name>
    </Practitioner>
  </contained>
  <identifier>
       <value value="12345"/>
  </identifier>
  <status value="active"/>
  <category>
     <coding>
       <system value="http://hl7.org/fhir/care-team-category"/>
       <code value="encounter"/>
     </coding>
  </category>
  <name value="Peter James Charlmers Care Plan for Inpatient Encounter"/>
  <subject>
    <reference value="Patient/example"/>
    <display value="Peter James Chalmers"/>
  </subject>
  <context>
	<reference value="Encounter/example"/>
  </context>
  <period>
    <end value="2013-01-01"/>
  </period>

  <participant>
    <role>
      <text value="responsiblePerson"/>
    </role>
    <member>
      <reference value="Patient/example"/>
      <display value="Peter James Chalmers"/>
    </member>
	</participant>

	<participant>
		<role>
			<text value="adviser"/>
		</role>
		<member>
			<reference value="#pr1"/>
			<display value="Dorothy Dietition"/>
		</member>
		<onBehalfOf>
			<reference value="Organization/f001"/>
		</onBehalfOf>
		<period>
			<end value="2013-01-01"/>
		</period>
	</participant> 
	<managingOrganization>
        <reference value="Organization/f001"/>
    </managingOrganization>
</CareTeam>
