<?xml version="1.0" encoding="UTF-8"?><CarePlan xmlns="http://hl7.org/fhir" xmlns:xsi="http://www.w3.org/2001/XMLSchema-instance" xsi:schemaLocation="http://hl7.org/fhir ../../schema/careplan.xsd">
  <id value="f003"/>
    <contained>
    <CareTeam>
        <id value="careteam"/>
        <participant>
    	    <member>
      		<reference value="Practitioner/f001"/>
      		<display value="E.M. van den broek"/>
    	    </member>
  	</participant>
    </CareTeam>
  </contained>
  <contained>
    <Goal>
      <id value="goal"/>
      <status value="achieved"/>
      <description>
        <text value="Retropharyngeal abscess removal"/>
      </description>
      <subject>
        <reference value="Patient/f001"/>
        <display value="P. van de Heuvel"/>
      </subject>     
      <note>
        <text value="goal accomplished without complications"/> 
      </note>
    </Goal>
  </contained>
  <identifier>
    <use value="official"/>
    <!-- urn:oid:2.16.840.1.113883.4.642.1.36 -->
    <system value="http://www.bmc.nl/zorgportal/identifiers/careplans"/>
    <value value="CP3953"/>
  </identifier>
  <status value="completed"/>
  <intent value="plan"/>
  <subject>
    <reference value="Patient/f001"/>
    <display value="P. van de Heuvel"/>
  </subject>
  <period>
    <start value="2013-03-08T09:00:10+01:00"/>
    <end value="2013-03-08T09:30:10+01:00"/>
  </period>
  <careTeam>
    <reference value="#careteam"/>
  </careTeam>
  <addresses>
    <reference value="Condition/f201"/>
    <!--TODO Correcte referentie-->
    <display value="?????"/>
  </addresses>
  <goal>
    <reference value="#goal"/>
  </goal>
  <activity>
    <detail>
      <category><coding><system value="http://hl7.org/fhir/care-plan-activity-category"/><code value="procedure"/></coding></category>
      <!-- urn:oid:2.16.840.1.113883.4.642.1.39 -->
      <code>
        <coding>
          <system value="http://snomed.info/sct"/>
          <code value="172960003"/>
          <display value="Incision of retropharyngeal abscess"/>
        </coding>
      </code>
      <status value="completed"/>
      <prohibited value="true"/>
      <scheduledString value="2011-06-27T09:30:10+01:00"/>
      <performer>
        <reference value="Practitioner/f001"/>
        <display value="E.M. van den broek"/>
      </performer>
    </detail>
  </activity>
</CarePlan>